File: APL745/First lab/beam_data_1.csv
Elastic_Modulus (GPa),Load (kN),Length_of_Beam (m),X-sectional Width b (mm),X-sectional Height h (mm),Max Deflection (mm)
151,2,11,58,95,88.62827
188,3,14,38,81,542.0619
182,3,14,46,91,326.206
199,5,7,46,93,58.22967
108,2,11,67,104,81.76162
126,5,9,62,110,87.63897
107,2,9,33,109,79.71138
178,3,9,66,87,70.6752
163,3,10,42,99,112.906
105,2,14,57,102,216.018
167,1,6,49,89,9.360763
138,4,13,69,103,211.15
192,5,10,46,104,125.82
102,1,14,38,84,298.6087
107,5,11,56,110,208.611
165,2,13,53,103,114.955
142,2,12,37,85,267.773
117,3,12,49,103,206.8766
166,3,11,60,100,100.226
168,2,9,44,88,72.35817
156,1,10,60,98,28.3783
158,5,7,56,104,43.0783
131,5,9,49,106,119.194
170,5,6,45,104,31.37634
112,3,13,68,96,244.54
114,2,11,67,108,69.16671
114,2,13,59,108,129.65
174,3,15,53,106,230.458
116,4,8,53,93,103.535
140,3,11,67,100,106.423
174,1,10,31,109,35.789
168,4,12,65,106,132.863
105,3,13,44,98,378.941
151,5,12,30,90,654.0757
134,4,10,38,105,169.646
126,2,15,57,110,176.531
142,2,14,61,84,267.2379
187,2,14,55,90,182.988
199,1,14,41,94,101.229
111,3,8,50,92,88.8535
173,3,10,34,110,95.7984
154,4,9,60,110,59.27581
106,4,12,56,92,373.8405
117,3,5,30,87,40.56079
134,5,8,31,110,115.754
108,2,6,64,98,16.60129
176,2,11,51,93,92.17568
193,4,10,34,95,177.743
130,5,13,60,91,467.22
137,4,8,31,95,140.61
190,4,10,70,108,59.6866
165,3,5,43,94,15.9087
184,3,14,58,95,224.92
166,5,8,36,106,89.91907
149,1,6,34,92,13.6888
194,2,10,45,80,111.863
106,1,12,30,87,206.3
141,5,11,49,110,180.923
125,2,14,50,110,164.929
189,4,7,45,96,45.5833
184,4,14,59,106,212.225
158,3,10,65,88,107.162
154,5,11,55,107,160.344
169,3,10,59,85,122.48
164,3,9,41,88,119.32
153,1,5,45,99,4.677788
107,2,9,39,100,87.34723
172,5,6,37,90,58.1977
183,3,7,34,85,67.32379
190,4,14,50,110,217.011
105,3,15,65,102,349.488
174,2,12,37,98,142.589
106,4,6,63,91,42.9223
176,3,5,62,86,13.5074
112,3,11,31,102,270.931
155,1,9,47,92,32.12732
173,1,7,38,82,23.6572
100,2,11,57,100,116.754
185,3,8,42,83,86.4323
166,4,12,35,94,358.083
171,4,11,34,104,203.518
101,4,11,66,84,336.88
171,4,12,66,99,157.797
198,1,6,66,109,3.190841
159,4,7,52,89,58.8469
197,4,15,58,99,304.421
128,4,15,42,102,591.5807
127,1,15,55,88,177.255
182,2,7,41,83,40.1952
179,5,13,31,99,510.058
113,4,13,50,105,335.903
139,1,8,53,96,19.6384
111,3,12,61,106,160.707
178,4,7,33,88,85.68645
179,4,11,45,107,134.884
125,2,11,64,96,94.02522
136,2,6,69,87,17.4774
104,1,9,59,93,36.92609
195,1,9,41,89,32.33546
127,5,10,35,81,529.155
160,5,13,46,104,331.713
127,5,13,60,82,653.6474
191,4,15,62,92,366.003
109,3,9,43,82,211.569
135,4,15,63,92,509.608
129,5,11,38,101,329.42
106,4,12,37,96,497.9921
172,2,13,49,84,219.9063
119,1,15,39,88,266.781
145,1,7,67,104,7.846777
130,4,14,59,99,368.709
100,1,8,57,88,32.9524
158,1,6,47,105,6.28161
129,1,7,62,104,9.531312
126,2,6,47,96,20.613
161,5,5,37,95,30.593
117,3,5,70,89,16.2374
130,5,5,35,103,31.4266
104,4,10,49,83,343.1913
182,4,5,65,98,11.2266
110,1,5,32,99,9.149593
159,4,15,53,81,753.6084
161,1,15,36,105,125.753
183,3,7,42,103,30.62974
193,1,11,38,101,44.0365
108,4,14,60,84,714.449
149,3,11,38,82,319.7628
123,5,13,69,110,243.1128
165,5,12,41,102,300.875
180,2,7,37,101,24.9934
187,3,11,31,105,148.754
156,1,11,35,109,47.05935
138,2,6,30,80,50.9511
152,5,6,51,103,31.87413
186,2,10,52,80,100.968
172,5,7,51,95,57.0079
179,5,6,54,109,21.56937
149,2,6,61,97,13.0194
153,1,10,46,92,45.6171
135,1,8,43,101,21.40147
115,4,6,64,89,41.62995
176,1,6,62,107,4.0396
146,2,8,41,99,44.0755
193,3,14,45,91,314.45
129,5,10,41,90,324.197
155,1,9,34,110,25.9824
154,4,15,37,96,669.48
116,2,10,34,108,100.638
129,4,8,47,91,112.062
197,5,8,37,82,159.2467
138,4,8,63,83,102.995
190,2,14,35,107,168.415
105,4,9,57,82,220.913
154,5,12,32,100,438.312
188,4,14,58,106,211.291
184,4,8,37,93,93.49784
152,1,6,33,82,19.5252
131,1,5,69,95,4.03236
104,1,15,57,91,188.878
163,1,13,45,88,109.881
174,2,15,55,91,233.996
141,5,8,49,87,140.6718
158,5,5,40,84,41.71239
117,5,5,51,89,37.14445
160,1,6,69,95,5.704976
183,2,11,56,100,64.93951
190,3,11,34,107,126.141
161,5,5,56,104,15.4066
114,4,9,53,82,218.829
152,4,10,34,101,187.808
181,1,8,39,94,21.8315
142,4,10,33,109,164.7852
164,2,8,68,106,19.2739
186,5,14,57,104,287.612
149,3,11,61,91,145.7468
110,3,14,52,81,677.0087
177,5,14,37,101,508.3409
176,2,14,64,83,213.023
115,4,6,35,104,47.70763
135,1,11,57,95,50.43577
173,5,15,32,109,588.4482
158,5,15,46,82,1052.755
175,1,14,32,103,112.105
105,1,7,37,82,40.0315
190,4,5,47,80,27.3394
114,2,12,60,101,122.601
160,3,7,43,85,60.885
196,4,8,58,82,81.68539
183,1,10,40,98,36.28697
199,5,13,68,98,215.625
177,5,8,69,100,52.4032
194,4,6,42,82,48.0796
172,1,5,67,104,2.41072
130,4,11,67,85,248.83
137,2,5,61,98,7.946052
189,4,9,54,107,58.307
199,5,10,60,109,80.84
134,1,5,57,98,4.347025
172,4,9,64,103,60.60485
125,1,11,67,108,31.54
106,4,8,44,95,128.039
135,2,9,42,99,66.2535
190,2,7,46,100,19.6224
120,1,13,34,101,130.661
124,5,13,32,89,981.7442
106,1,10,61,94,46.55011
145,4,13,36,81,791.9623
193,5,10,70,96,104.578
123,2,11,69,108,62.2476
106,5,6,57,85,72.7656
113,4,7,46,94,79.44641
183,4,7,57,91,43.6359
178,4,14,56,95,321.0741
126,5,8,67,90,103.994
188,1,9,69,94,16.9152
155,4,5,65,95,14.4709
173,4,11,39,104,175.375
117,2,12,53,105,120.361
164,5,13,60,84,470.8766
127,5,11,48,101,264.8982
117,4,13,59,104,282.939
110,3,15,34,85,1102.06
127,2,8,66,106,25.6433
100,4,7,30,105,98.76542
164,3,6,52,86,29.8657
147,4,15,62,95,431.911
120,5,15,58,87,920.485
135,5,15,64,107,398.583
110,3,9,65,86,120.223
150,5,14,43,98,565.01
180,4,6,67,104,15.9223
130,5,5,62,86,30.4782
101,4,14,63,100,431.243
122,1,14,53,88,155.683
100,2,6,58,106,15.63429
153,1,8,51,86,25.7901
115,2,15,53,92,355.555
166,5,11,67,90,205.2
140,5,12,48,109,248.202
149,4,11,68,87,199.492
180,2,10,47,104,52.5412
126,4,9,57,107,82.85731
147,4,8,54,99,66.47422
154,1,9,57,97,22.74871
154,2,6,33,106,17.84315
135,4,8,41,81,174.059
198,4,15,30,100,568.1818
102,1,7,69,104,10.8314
127,1,7,64,105,9.113444
142,4,6,65,110,17.5822
107,3,6,57,80,51.87838
144,4,14,37,86,809.701
155,3,11,51,97,138.364
141,3,7,39,106,39.2784
199,5,10,42,94,180.063
169,1,13,62,83,91.67638
158,1,13,44,99,81.42443
118,1,7,66,96,12.445
194,3,8,54,85,59.6869
140,5,10,62,84,242.97
120,5,10,70,84,251.069
150,2,8,31,94,66.2832
140,5,15,51,94,711.3806
138,5,10,66,90,188.2606
191,5,11,57,88,224.25
200,1,15,63,92,85.9963
113,3,9,69,85,114.1838
144,3,11,46,105,130.182
156,2,15,55,105,169.898
123,2,5,61,80,16.2695
127,4,15,65,85,665.7327
193,5,10,30,99,222.498
139,4,6,37,87,63.77926
100,1,15,35,94,290.243
125,4,7,53,102,48.7874
173,3,15,61,92,308.032
158,4,15,32,96,754.489
174,2,13,37,100,170.628
125,5,11,56,107,194.017
109,3,11,50,98,194.61
199,4,15,30,81,1063.76
173,3,9,68,98,49.3805
155,2,7,67,94,19.88264
132,1,10,54,92,45.0411
170,4,9,61,92,90.2787
149,2,8,36,94,57.4603
154,3,6,64,88,24.1194
183,2,15,42,91,291.3528
129,2,5,49,81,18.6054
125,4,5,46,98,23.0974
186,3,15,60,106,190.438
180,3,12,57,105,109.116
170,1,5,65,102,2.66494
173,2,11,45,87,129.817
154,4,13,68,105,181.231
111,5,9,41,106,168.118
167,2,6,62,99,10.75
148,5,6,61,94,36.0071
162,2,13,56,104,107.646
177,2,6,35,102,16.4279
164,4,11,69,102,110.837
157,3,12,43,103,175.681
153,4,6,64,98,23.4371
158,1,13,44,82,143.291
126,2,10,54,85,119.66
102,3,10,63,82,211.6796
176,5,6,63,99,25.096
161,1,9,68,84,28.0863
112,1,10,49,100,45.5539
170,4,9,44,100,97.45989
142,4,14,52,83,649.9173
189,3,5,65,106,6.40735
105,2,12,54,82,276.369
179,3,5,55,91,12.6366
176,4,14,34,94,552.089
123,5,7,46,96,85.65
146,2,7,62,95,22.0978
168,1,15,49,103,93.79869
120,3,8,68,101,45.6748
133,2,15,53,92,307.435
178,4,7,48,92,51.5548
155,4,8,52,101,61.6554
138,4,6,65,110,18.0919
157,5,7,37,97,80.87
171,5,10,33,83,387.405
103,1,7,34,105,21.1519
182,2,9,52,105,33.27016
185,3,13,62,81,270.317
153,1,15,63,96,98.93913
156,5,5,32,84,52.809
111,5,9,65,107,103.098
158,4,13,62,98,238.288
173,3,6,34,104,24.4844
186,5,14,57,92,415.473
128,1,15,44,92,192.392
168,4,5,68,107,8.93183
177,3,5,38,106,11.70299
153,1,5,50,82,7.40879
148,1,10,31,89,77.2941
161,1,5,40,80,9.477509
120,2,14,53,107,176.094
161,3,10,51,92,117.301
141,3,10,56,110,71.36349
142,5,10,52,80,330.6346
167,1,5,33,97,6.21304
192,4,15,49,98,381.152
123,5,15,59,102,547.8052
170,3,14,42,110,216.555
116,2,11,37,93,192.77
166,3,13,33,97,329.5749
151,3,13,69,80,308.884
148,5,12,33,84,746.1742
167,3,9,63,90,71.286
199,1,7,60,104,6.38454
165,1,13,45,106,62.10921
144,2,14,68,89,198.753
177,3,15,56,88,374.736
151,1,11,66,103,30.5552
127,2,11,30,94,210.3
192,1,9,41,107,18.8987
154,5,13,54,86,519.195
115,4,14,68,85,571.3741
106,5,8,45,105,115.903
117,3,5,69,87,17.6351
118,5,9,34,93,282.376
116,3,7,68,91,43.2777
118,5,6,38,83,105.309
131,1,11,45,93,70.1755
168,5,8,50,94,91.73121
150,2,7,56,94,24.5811
177,1,13,34,96,103.1583
104,5,6,58,97,49.0442
165,2,6,66,93,12.3295
177,5,9,35,86,231.2602
101,4,8,61,106,69.77521
155,1,11,38,80,110.34
107,1,14,38,84,284.655
121,2,12,63,104,100.76
120,2,7,39,98,38.935
118,2,10,68,100,62.31306
123,5,13,64,89,494.863
127,2,8,64,84,53.1396
102,1,8,65,103,17.6679
158,1,10,65,80,47.5444
171,4,15,37,90,731.7258
160,3,13,48,81,403.715
166,5,10,47,84,270.313
114,2,14,66,91,241.981
174,5,11,61,104,139.351
186,2,7,44,110,15.7442
186,1,14,67,96,62.21895
151,2,9,48,96,56.8415
172,1,13,62,81,96.91586
169,5,15,47,88,779.3835
122,5,9,36,103,189.873
156,5,9,42,100,139.08
198,2,10,60,107,34.356
181,1,12,30,84,134.229
145,3,15,57,85,498.6954
117,4,14,69,105,293.617
163,5,13,63,82,485.032
119,1,9,38,92,51.7575
163,3,10,44,108,83.01369
191,3,14,67,96,181.771
143,4,10,63,89,157.454
123,3,12,39,97,296.019
112,1,7,54,84,23.9213
100,3,14,64,94,387.152
148,5,9,33,92,239.6064
155,4,15,37,89,834.777
156,1,7,70,96,8.875601
113,2,10,67,105,57.0491
189,4,6,67,86,26.8177
110,1,5,35,107,6.62579
169,1,6,62,102,4.856405
128,5,14,54,103,454.128
172,2,8,33,102,42.5008
138,5,10,65,97,152.6871
163,1,12,67,82,71.74304
101,4,7,37,105,79.28721
192,1,10,37,110,26.43985
118,4,5,39,109,20.9741
151,1,10,47,106,29.5766
185,1,13,70,105,36.6381
117,3,8,35,99,96.6433
107,5,12,54,94,450.083
174,4,14,65,108,192.5973
164,3,10,48,108,75.63188
167,5,12,53,107,199.21
120,1,14,65,102,82.87604
147,1,9,69,109,13.8746
101,2,10,34,110,109.394
118,1,14,41,88,208.07
136,2,5,30,88,22.4787
199,3,6,47,80,33.8294
104,2,8,32,93,95.633
120,2,10,58,99,74.0381
143,2,12,56,89,153.0452
106,4,10,68,87,210.682
133,5,7,62,110,39.06454
139,3,14,59,90,344.232
148,1,14,65,86,112.112
173,5,10,37,95,227.767
135,5,13,51,101,387.1435
197,3,9,56,105,42.81211
154,2,8,66,109,19.4489
116,5,13,53,91,592.7642
119,4,8,53,88,119.124
155,2,14,57,104,138.054
182,3,13,64,104,125.759
182,4,12,36,97,288.971
198,5,7,51,94,51.1193
148,3,14,37,110,282.36
161,5,8,68,84,98.6296
152,4,13,64,103,206.678
187,4,15,50,89,512.0262
147,4,14,34,98,583.324
154,2,12,41,80,267.263
195,3,15,43,84,509.3239
116,4,5,65,106,13.9194
151,5,14,68,94,402.184
173,5,13,47,84,569.8469
172,2,12,39,88,189.005
133,4,6,65,88,36.6641
153,4,8,66,108,40.2498
142,5,10,67,84,221.671
189,3,8,39,99,53.6907
102,5,10,69,80,346.8892
186,1,14,49,89,106.769
165,3,5,59,85,15.6812
159,5,15,52,99,525.8692
146,4,11,61,108,118.638
139,2,9,46,104,50.6786
116,4,12,67,86,349.555
164,3,14,49,92,328.8834
192,1,9,56,80,33.10612
167,1,5,30,107,5.09168
121,1,10,38,109,41.9847
190,4,11,64,102,103.144
127,5,14,48,97,616.5013
192,5,13,69,106,174.049
116,3,13,39,94,438.516
188,2,9,33,80,114.751
199,1,14,54,107,52.11058
100,1,5,34,102,8.661051
180,2,7,41,109,17.94437
152,3,9,41,100,87.73267
130,1,11,67,80,74.6157
150,2,14,40,83,399.9158
130,4,11,37,104,245.999
200,4,5,44,104,12.6278
182,1,14,46,92,105.228
129,5,6,40,86,82.26568
150,5,14,59,95,452.0433
103,3,7,54,88,67.8698
129,5,6,60,89,49.4826
190,2,11,55,82,115.502
147,1,6,47,109,6.0353
159,4,12,35,92,398.763
176,3,15,65,85,360.29
187,3,12,69,84,169.464
195,5,6,37,80,73.08991
100,4,6,60,100,36.0
133,2,10,46,84,137.8868
102,2,6,41,97,28.296
200,5,6,37,102,34.38203
149,1,10,67,103,22.9175
147,5,13,42,103,407.063
148,2,14,45,103,188.525
169,2,14,67,95,141.3259
140,3,5,30,88,32.7547
141,3,15,64,103,256.699
198,5,6,65,91,27.8395
198,5,6,35,101,37.8152
180,4,12,60,91,212.3224
125,5,8,53,106,81.1104
195,4,14,37,108,301.9093
113,1,7,43,97,19.3362
112,4,8,51,88,131.5327
185,4,10,63,84,144.76
188,2,12,30,97,167.849
173,1,5,55,101,3.1877
195,2,10,34,88,110.665
120,5,7,69,95,60.3953
160,2,11,57,83,127.62
182,4,9,60,91,88.58919
183,4,10,67,88,119.681
158,3,13,66,84,266.595
199,1,10,66,103,17.4193
138,5,11,48,110,188.708
149,1,12,57,101,49.3695
165,3,14,30,81,782.3212
119,2,12,36,86,317.08
179,3,11,52,83,187.564
134,3,13,31,110,298.021
109,5,8,68,105,74.58933
115,1,11,45,83,112.454
159,4,11,46,89,258.139
101,2,15,60,95,324.788
127,1,10,31,95,74.06342
155,3,10,59,87,124.543
104,1,11,42,95,88.85146
133,3,14,38,104,362.001
110,2,9,35,83,165.578
135,3,8,41,86,109.073
171,2,14,36,85,362.91
109,4,9,64,85,170.163
137,4,6,41,109,29.6941
138,3,5,70,89,13.7665
133,1,7,49,92,16.8975
140,2,9,50,83,91.06788
191,5,6,39,95,42.2761
149,4,9,41,99,122.9849
141,4,12,55,106,187.087
194,2,14,59,100,119.8672
125,3,10,37,109,125.219
184,5,6,33,96,50.2595
179,2,15,41,82,417.028
171,2,9,33,95,75.33845
180,1,5,66,97,2.88216
165,1,10,69,85,35.7561
151,3,11,63,109,81.02934
140,2,6,37,97,22.8443
150,3,15,65,100,259.6154
129,5,9,66,105,92.45619
164,1,14,68,88,90.2658
109,5,6,41,83,105.662
150,1,10,30,80,108.507
156,2,8,54,89,43.1074
158,4,8,60,103,49.42537
135,4,7,55,104,41.0674
149,3,11,42,103,145.98
150,3,5,49,98,13.5521
137,3,6,68,102,16.3865
164,5,6,69,102,22.4838
104,2,12,40,94,250.056
195,2,5,60,102,5.03377
133,5,12,63,104,229.172
126,3,5,69,104,9.586313
191,4,7,36,110,37.4783
140,2,10,42,105,73.45558
136,5,10,35,95,306.2896
140,5,12,40,110,289.793
156,5,11,40,98,283.286
188,2,8,68,106,16.8134
167,4,8,42,110,54.8436
158,1,9,34,96,38.3458
190,5,5,66,100,12.4601
196,4,6,47,81,44.1209
161,1,15,51,94,123.718
149,4,11,30,93,370.187
177,4,9,44,104,83.21499
176,2,10,63,89,63.96564
120,3,12,67,84,271.964
169,5,15,69,92,464.606
162,5,10,38,108,161.191
117,3,12,49,85,368.1004
168,4,8,66,96,52.19189
151,1,13,57,83,111.605
165,1,7,60,95,10.1025
183,4,13,48,110,187.914
145,1,15,53,87,166.729
133,3,14,45,90,471.687
191,4,11,49,104,126.43
177,2,13,48,81,243.2935
158,4,11,37,93,283.055
141,3,10,68,97,85.7073
186,2,6,52,110,8.389371
109,4,15,50,98,657.959
174,5,9,70,104,66.5105
185,5,7,53,103,40.01703
168,5,9,31,100,174.9712
183,2,12,67,94,84.8407
155,2,13,56,105,109.323
197,2,15,47,96,205.999
132,1,15,56,109,88.13986
121,5,15,35,81,1874.456
135,1,5,37,100,6.25626
104,3,14,36,104,488.663
113,4,14,45,106,453.0807
127,1,11,69,85,61.8313
200,2,12,40,108,85.73389
145,5,7,43,83,120.263
100,5,10,61,92,263.158
173,1,7,68,84,12.2982
145,3,12,57,99,161.606
166,4,13,43,92,395.2665
125,3,12,40,104,230.428
153,4,6,70,85,32.84033
141,3,7,51,96,40.43453
155,2,13,37,103,175.289
108,3,13,36,84,715.035
141,2,15,46,110,195.4739
104,3,15,43,85,921.672
101,5,5,52,110,22.352
183,2,8,60,98,24.7719
150,1,7,41,87,21.1739
128,2,10,31,96,142.424
153,4,15,48,86,722.5132
194,5,14,49,93,448.588
100,4,7,51,100,67.2549
150,4,14,49,83,652.924
163,4,12,61,109,134.198
187,3,9,56,99,53.8088
185,1,7,32,85,23.5861
172,1,9,41,98,27.4585
199,3,13,45,91,244.175
120,1,7,34,105,18.15541
151,1,5,38,102,5.13203
120,1,12,50,90,98.7654
175,3,12,35,83,370.054
140,1,10,56,92,40.95062
138,4,8,35,105,91.5704
126,4,5,53,86,29.4285
196,2,12,42,85,170.904
123,3,7,42,106,41.81031
196,4,6,39,99,29.1224
143,3,5,56,88,17.1791
127,4,14,35,102,581.7171
183,5,10,40,102,160.9157
185,4,9,31,97,139.277
190,2,14,38,103,173.902
134,5,13,52,95,459.6858
101,3,11,32,92,396.647
106,5,13,61,91,563.6119
132,4,8,53,95,85.359
116,1,12,57,103,59.79147
171,2,9,64,104,29.6088
154,1,9,67,83,30.89141
188,5,15,52,88,633.2491
163,4,13,47,105,247.7289
125,3,11,36,89,314.671
125,3,13,43,95,357.554
103,2,15,55,96,336.69
165,5,15,44,98,617.4033
176,1,12,49,91,66.47385
154,2,11,55,80,153.46
189,5,8,57,85,96.73564
124,2,15,70,102,183.199
177,4,6,59,83,36.17381
153,3,15,33,84,845.847
195,1,14,61,109,44.5328
142,2,9,34,95,88.0561
175,3,12,36,89,291.806
185,3,14,35,93,395.145
111,5,5,42,95,39.09101
148,5,5,53,91,26.4337
146,1,15,46,91,166.717
189,1,8,40,105,14.6258
152,2,14,45,88,294.34
191,1,11,69,85,41.11297
155,5,8,39,107,86.4236
175,1,14,66,84,100.208
155,5,12,41,106,285.378
117,4,15,30,85,1565.7
184,3,7,63,97,24.31542
189,1,8,66,85,16.7089
178,1,6,40,95,8.845919
183,1,14,50,110,56.32808
178,4,8,50,104,51.14226
153,1,15,46,95,139.828
136,2,11,45,96,122.909
124,2,13,47,88,276.587
148,4,13,39,93,473.2111
191,4,13,37,102,292.951
173,3,5,39,81,26.146
107,3,13,66,87,354.328
125,1,7,35,110,14.72577
162,3,14,39,92,418.314
166,2,11,36,100,111.362
194,1,9,37,89,36.0159
194,2,11,70,108,38.90246
195,5,12,57,90,266.573
176,3,15,68,81,397.9774
133,2,7,59,95,25.4912
193,2,12,44,95,118.668
142,3,10,69,97,83.8704
108,4,8,45,90,144.513
142,1,5,37,84,10.0351
139,5,13,37,104,474.705
179,3,6,45,82,36.47606
142,4,11,69,110,102.062
194,5,15,32,97,744.5894
200,3,10,64,88,85.9812
188,5,11,56,83,276.381
102,4,9,58,84,207.903
141,1,6,37,90,14.1986
188,2,9,54,102,33.83338
139,1,5,54,100,4.16334
196,4,15,41,104,373.365
199,4,7,49,109,27.1622
176,5,5,56,85,25.8144
166,4,14,68,88,356.7131
190,3,12,69,95,115.301
193,4,11,58,88,174.48
154,1,7,64,86,13.6785
152,5,15,40,98,737.2283
163,3,5,68,81,15.91548
145,2,7,44,90,36.8736
197,2,8,56,102,21.8668
167,2,11,44,100,90.5689
160,2,14,60,103,130.789
116,4,15,65,90,614.0092
147,5,15,41,101,679.389
115,4,9,33,102,181.015
185,3,6,30,103,26.7122
135,3,8,49,82,105.283
158,4,8,67,91,64.1821
112,4,10,48,103,170.227
179,2,12,64,80,147.303
187,4,14,39,98,399.76
139,1,15,47,85,210.302
129,2,14,37,105,248.31
113,5,9,63,106,107.4734
133,5,12,41,100,396.1122
134,4,14,50,86,643.8934
103,2,11,53,96,137.791
156,2,7,40,108,21.8177
161,2,8,44,88,53.029
130,5,7,59,105,48.28819
148,1,9,58,88,31.1551
155,3,13,32,95,387.471
109,1,12,53,86,117.567
132,2,12,42,110,117.088
103,4,9,50,100,141.553
101,1,14,45,80,294.7951
110,5,9,34,88,357.5345
104,3,9,64,83,143.662
198,3,10,36,105,90.892
188,4,15,30,101,580.8053
124,3,12,48,80,425.2772
158,3,15,42,88,559.7326
191,2,6,43,90,18.0383
192,1,11,42,97,45.2119
147,2,12,43,83,239.053
132,3,14,47,104,294.899
172,1,5,57,99,3.28504
157,1,11,62,101,33.1789
195,1,15,58,90,102.335
162,3,8,51,87,70.58108
148,1,6,45,106,6.807724
168,5,12,46,87,424.452
179,4,6,59,93,25.4273
190,2,10,67,93,48.8307
200,4,13,63,87,264.7901
168,5,8,51,99,76.98302
101,5,14,33,105,888.9778
108,4,8,37,82,232.382
106,5,10,48,93,305.432
102,1,6,63,99,8.66059
140,3,12,69,101,130.216
153,3,8,55,90,62.5964
134,5,11,48,90,354.825
200,4,6,46,101,22.7878
133,4,11,38,110,197.863
105,1,5,36,90,11.34046
127,2,15,58,89,324.969
180,2,5,47,81,13.9013
191,2,13,57,97,110.555
110,1,11,54,87,85.0695
140,5,11,70,106,142.5425
169,4,15,58,85,560.6635
137,1,6,52,96,8.56754
189,1,6,60,100,4.7619
198,2,5,32,85,16.0623
104,5,13,40,108,524.0533
115,3,9,46,103,94.58482
180,1,10,57,109,18.8154
132,2,15,56,98,242.551
172,2,14,61,94,157.439
152,3,10,40,97,135.158
190,2,8,36,102,35.2682
127,2,8,37,99,56.1473
111,1,6,55,86,13.9063
163,5,13,36,98,497.246
161,5,11,42,99,253.5755
169,4,7,70,92,37.23453
124,5,7,35,93,122.819
188,1,15,49,109,70.7262
154,5,10,31,100,261.835
133,4,14,37,92,716.0894
159,1,12,63,107,35.20422
129,1,5,59,110,3.084823
148,3,12,50,104,155.694
131,5,7,51,100,64.17453
184,4,14,48,100,310.6884
200,5,12,35,89,437.709
110,4,7,35,92,114.412
157,3,10,45,100,106.157
120,1,9,50,88,44.57263
175,4,9,64,82,118.051
176,3,14,47,81,468.144
169,2,5,67,89,7.82976
110,3,11,30,84,510.3728
164,4,7,35,82,108.378
108,5,12,57,80,685.307
128,4,9,34,102,157.848
128,4,8,67,88,87.60667
190,2,9,48,82,72.48717
100,2,7,33,103,47.5596
191,2,10,61,93,53.3529
110,2,8,55,94,50.94494
193,3,8,45,86,69.51301
102,3,9,30,106,150.02
139,4,13,60,103,241.075
172,1,13,36,81,166.911
196,2,8,65,102,18.9352
155,1,5,31,107,5.30891
150,5,8,55,109,59.90272
107,3,14,50,93,478.237
183,4,12,63,100,149.8829
179,4,14,41,110,280.911
142,2,14,34,97,311.366
181,4,13,70,99,178.7096
163,5,13,38,93,551.214
200,2,12,70,94,74.30228
128,1,12,50,81,127.013
134,1,15,45,108,111.077
114,4,10,46,101,185.086
133,1,5,70,107,2.73999
125,3,8,55,82,101.302
179,5,8,61,106,49.213
162,4,12,34,82,568.995
150,5,13,40,102,431.309
125,3,5,64,93,14.5691
185,1,7,33,88,20.6111
175,5,7,44,86,87.54232
139,2,7,31,97,43.6086
175,1,11,35,103,49.7165
163,2,9,55,89,57.67362
129,5,7,44,99,77.84956
126,1,13,38,90,157.358
108,4,14,37,101,666.491
198,1,12,67,93,40.48507
137,2,9,30,104,78.8416
103,1,11,47,109,53.0766
168,1,13,52,104,55.893
164,1,9,64,104,15.4363
104,5,5,67,108,17.8008
190,2,6,38,103,13.6891
106,1,11,59,101,51.6412
106,3,9,69,82,135.579
133,1,12,61,110,40.0059
181,3,11,55,89,142.242
176,4,10,57,85,162.314
162,5,8,48,80,160.751
142,1,5,64,87,5.22184
136,2,7,59,88,31.3635
114,3,15,43,81,971.6428
157,3,15,69,85,380.478
140,5,6,38,93,63.09621
149,2,12,31,91,248.223
157,2,5,69,88,8.466097
104,4,9,60,93,145.243
177,3,6,60,86,23.9825
120,3,10,66,100,94.69697
145,1,6,55,108,5.37517
175,4,14,69,88,333.464
175,2,8,51,91,38.0634
182,1,6,65,106,3.832582
157,5,14,60,94,438.389
136,1,15,54,90,157.599
183,3,12,56,100,126.4637
178,4,7,45,84,72.24765
132,5,8,37,93,162.9129
174,3,7,63,89,33.2886
104,5,12,31,106,562.5241
149,5,6,47,83,67.42879
107,4,8,48,108,79.1359
150,5,6,67,93,33.40018
198,4,8,48,90,73.89857
124,5,6,48,98,48.19729
181,3,13,53,92,220.5837
126,3,7,34,90,82.37177
174,5,5,65,81,25.99575
194,5,12,33,89,478.5949
101,5,14,35,93,1206.3
100,1,10,30,102,78.52686
163,4,13,47,106,240.784
114,3,10,45,101,141.899
139,4,7,56,103,40.3255
188,5,11,54,105,141.569
150,3,14,39,91,466.8371
103,1,10,64,104,33.71497
101,1,11,37,85,144.99
127,5,7,33,92,131.378
135,1,7,43,87,22.4323
200,5,15,38,80,1084.18
186,3,14,35,99,325.8058
148,1,15,66,88,126.754
181,1,8,32,96,24.9786
153,1,10,53,102,29.0517
192,5,11,36,96,272.064
143,2,6,32,92,30.3092
138,2,10,44,93,102.374
130,1,15,49,87,201.148
198,2,10,50,89,71.6415
186,1,7,68,104,6.02715
128,3,15,52,95,443.558
109,2,13,33,107,249.292
198,5,9,65,81,133.231
200,5,13,36,110,286.569
144,1,6,51,80,14.3612
103,2,5,45,109,10.4124
182,3,12,56,109,98.1897
182,4,13,68,87,269.5827
171,4,14,40,105,346.545
189,2,13,32,101,176.289
162,2,14,43,98,209.263
189,5,5,39,104,18.8449
138,2,6,62,92,16.2102
139,4,14,36,98,582.624
135,4,6,43,86,58.5
156,5,15,30,84,1520.898
165,5,5,58,89,23.16
106,4,7,35,109,71.39054
184,5,15,65,89,500.36
109,5,14,64,93,611.2781
144,1,13,66,108,45.87672
151,4,7,36,89,89.5045
192,5,11,61,97,155.647
144,2,15,65,93,224.14
110,4,9,60,86,173.655
165,1,6,64,95,5.96429
113,4,12,50,107,249.657
160,4,5,52,104,13.3563
156,4,7,60,93,45.5585
149,2,6,34,89,30.2405
187,5,7,44,93,64.783
167,1,7,64,108,6.368929
146,4,12,55,89,305.252
160,5,7,35,82,138.859
169,3,13,40,86,383.221
126,2,13,38,85,373.585
118,2,7,66,99,22.6951
139,3,9,47,93,104.046
167,3,13,38,92,333.448
195,1,9,30,101,30.2376
116,4,5,45,94,28.8308
149,2,12,65,81,167.865
101,3,12,35,104,325.9234
124,5,6,55,86,62.24207
126,4,6,59,97,31.8358
135,4,11,50,95,229.987
123,2,15,66,104,184.7969
112,2,10,31,109,111.202
139,3,6,59,90,27.097
196,2,7,36,88,35.6663
166,5,15,62,104,364.405
101,1,12,42,109,78.63821
144,2,7,42,87,43.06204
188,4,6,46,93,31.052
147,3,7,50,81,65.85867
102,3,10,67,94,132.13
127,2,6,70,90,16.6646
131,2,8,54,99,37.2966
178,5,11,37,106,212.104
155,2,8,56,87,44.7881
108,5,6,57,96,49.57371
110,4,14,57,83,765.3891
170,3,10,38,88,170.365
156,3,7,35,91,62.5228
104,1,15,47,110,129.6894
162,4,15,58,81,675.889
103,5,12,52,82,731.4281
103,5,14,63,100,528.587
130,3,7,57,104,30.86293
135,2,9,44,109,47.384
160,3,14,48,96,302.8799
136,1,10,43,82,77.5338
189,3,11,33,84,270.0385
102,5,13,60,84,757.0957
147,1,5,44,83,8.449786
168,4,13,33,106,332.728
123,3,15,32,92,825.879
153,4,10,33,108,157.226
199,3,6,43,82,34.3362
158,5,7,65,100,41.74781
110,1,11,43,96,79.51393
118,3,7,38,104,51.0023
152,1,12,33,92,110.602
161,2,8,63,98,26.8161
184,3,5,64,86,12.5164
188,2,7,56,94,19.6126
188,1,6,40,107,5.86171
146,1,12,41,100,72.16839
119,1,11,70,103,36.55623
177,2,14,39,81,373.991
172,4,8,41,101,70.46826
170,3,10,42,110,78.9196
175,3,6,55,99,17.3464
128,4,11,31,80,655.1435
101,1,12,52,90,112.832
159,4,9,53,101,83.96348
110,3,15,35,106,552.0224
112,4,12,56,94,331.7066
120,2,14,60,83,333.263
145,2,11,46,92,128.132
139,3,14,68,104,193.563
101,2,11,50,89,186.933
175,2,8,67,82,39.5991
115,4,8,65,96,77.41856
126,2,6,66,91,17.234
192,3,7,68,104,17.5164
153,5,8,34,95,143.496
156,5,7,35,105,67.8334
126,4,15,58,86,726.072
113,1,8,52,103,19.93501
191,5,8,62,83,94.51933
145,1,12,30,82,180.116
160,4,14,42,82,740.5822
121,5,9,32,90,322.8306
153,3,5,42,102,13.7477
174,2,6,31,102,18.86741
170,1,9,68,85,25.6716
107,2,9,37,99,94.88694
146,3,6,45,104,21.9205
200,3,14,52,98,210.249
199,4,7,51,83,59.10668
133,2,12,66,89,139.62
180,4,6,70,107,13.9937
200,3,13,61,82,244.957
149,1,5,45,101,4.52363
141,3,12,70,103,120.165
146,4,13,57,96,298.393
120,4,12,50,109,222.389
124,1,12,52,106,56.2524
166,1,13,62,99,55.0003
125,3,5,53,102,13.33475
198,3,10,53,94,86.04718
125,1,12,59,108,46.4997
180,2,6,66,93,11.3021
194,2,12,35,110,95.60177
148,3,5,51,96,14.0387
174,1,10,48,104,26.6103
100,3,15,32,105,683.309
188,4,9,32,81,228.016
162,4,13,69,86,309.009
174,5,7,39,110,47.4692
199,2,10,69,101,35.343
128,5,7,43,96,88.0465
164,1,10,55,93,34.45757
138,3,15,58,94,380.7539
161,1,7,53,100,10.0492
177,5,10,53,86,209.491
190,5,15,42,106,443.8777
137,5,8,43,98,115.428
100,5,8,41,103,142.851
165,3,6,48,81,38.4888
163,5,13,59,93,355.019
178,1,12,66,83,64.311
185,3,12,46,104,135.387
156,4,9,60,99,80.26868
121,2,15,70,109,153.844
187,2,5,64,109,4.032542
169,2,11,36,94,131.697
161,5,11,31,100,333.35
167,1,10,57,99,27.0672
191,5,6,43,110,24.6993
146,4,5,61,109,10.838
113,4,12,35,93,543.1858
111,4,5,62,107,14.8267
135,2,13,39,106,175.18
168,2,11,49,105,69.83527
113,5,13,43,94,680.471
128,2,10,45,91,115.192
149,3,10,57,82,160.162
102,2,5,57,108,8.533628
139,2,12,32,85,316.2949
198,4,11,57,105,101.876
167,2,5,47,87,12.0923
111,5,14,68,86,714.442
191,5,7,54,100,41.56971
149,5,13,35,86,827.9238
139,5,5,36,82,56.6319
159,5,8,44,109,70.64
187,4,11,47,110,113.779
118,4,14,52,108,354.9993
167,2,5,53,88,10.3619
120,3,10,41,101,147.956
140,4,13,54,80,567.595
146,4,7,67,88,51.4539
122,4,7,39,84,121.6275
155,3,11,32,90,276.077
168,4,9,33,96,148.625
179,4,7,32,89,84.94172
169,4,10,31,92,245.125
135,2,12,59,80,211.864
153,2,15,42,99,270.6434
111,1,6,33,86,23.1772
191,3,14,40,81,506.87
151,4,12,49,92,299.921
172,2,13,65,88,144.182
116,5,10,64,102,158.661
185,4,8,34,106,68.3442
156,4,9,56,96,94.3194
200,5,6,67,91,26.7384
126,1,10,60,104,29.398
123,5,14,50,86,876.847
187,1,12,61,110,28.4534
100,2,7,66,84,43.84119
105,5,14,68,110,360.926
147,2,7,38,80,59.9644
110,2,9,46,101,69.917
178,3,8,46,89,66.5248
194,5,8,65,100,50.7534
200,4,14,69,109,153.541
137,5,15,56,94,662.0513
133,2,7,61,83,36.9699
196,5,7,42,109,40.21789
103,1,13,37,106,121.008
142,2,7,30,87,61.136
128,1,13,51,87,127.771
150,5,11,53,97,229.301
196,4,10,33,93,192.2123
119,5,6,31,81,137.721
141,3,8,42,95,75.62963
103,5,11,60,83,470.831
124,4,10,43,97,205.492
172,1,12,38,108,52.4687
110,1,10,34,86,105.093
121,4,11,50,96,248.662
163,4,15,48,97,472.6392
105,3,8,62,109,45.54815
113,4,6,51,91,49.73716
120,5,12,43,83,732.099
156,3,10,41,93,145.782
125,3,5,41,86,28.75955
190,5,10,47,101,135.861
166,1,14,60,107,56.22293
185,5,9,64,87,116.877
113,4,8,60,94,90.91943
112,4,9,56,97,127.352
127,3,14,49,101,320.983
191,5,6,32,89,62.6629
104,2,5,39,103,14.1017
197,3,7,39,86,52.6416
173,5,5,33,95,31.9219
167,3,11,56,103,97.6839
200,4,10,67,88,109.508
140,4,12,56,89,312.649
167,3,13,36,102,258.269
121,2,15,55,103,232.051
148,5,6,36,84,85.49913
118,4,5,69,98,16.3118
109,5,8,51,108,91.39281
145,4,11,38,82,438.112
152,4,8,33,102,96.18601
153,1,8,62,95,15.7382
131,5,5,41,86,45.7372
175,2,5,58,87,9.350959
119,5,9,31,85,402.228
106,4,11,53,87,359.781
152,4,10,41,95,187.155
110,5,7,56,87,105.698
200,5,5,54,95,16.8743
169,5,8,61,102,58.50095
169,2,7,35,100,28.99408
164,5,12,36,98,388.7131
169,3,14,41,100,297.013
181,2,7,52,110,13.69
181,1,6,37,93,10.0245
145,1,10,53,103,29.7704
161,2,5,61,88,9.338482
161,1,6,48,105,6.03613
145,2,12,41,97,159.238
127,3,13,35,98,393.86
178,3,14,48,87,365.7854
155,3,10,60,101,78.2734
103,3,7,31,95,93.96923
170,3,5,50,96,12.4663
158,1,15,54,105,85.42697
158,1,11,64,100,32.90645
188,2,6,33,97,19.07378
181,2,10,53,88,76.48346
137,1,5,70,110,2.44824
114,5,10,39,97,308.053
181,3,15,60,100,233.0801
144,1,11,62,98,39.59913
197,5,7,44,91,65.63886
179,3,11,35,101,154.651
109,2,7,67,82,42.5913
138,3,6,70,86,26.3659
167,2,8,51,86,47.25611
157,5,15,39,80,1345.7
129,2,9,43,91,87.1997
200,2,15,63,101,129.99
196,5,8,47,84,117.216
143,1,15,70,88,123.689
199,4,12,43,88,296.329
200,4,7,34,82,91.48368
110,2,8,37,100,62.8993
179,4,9,43,91,125.685
182,1,5,55,99,3.21744
106,2,15,42,104,336.968
151,1,5,31,104,5.934872
109,4,9,34,101,190.9229
139,4,13,69,100,229.069
187,1,14,40,88,134.578
173,1,7,42,101,11.45446
148,2,12,48,99,125.344
166,5,10,67,99,115.83
175,5,10,30,85,387.698
147,4,13,61,95,285.767
123,3,9,47,106,79.40873
131,3,11,40,89,270.233
113,1,8,55,103,18.8476
197,5,6,38,91,47.8619
124,3,13,58,91,304.0307
141,4,8,66,90,75.47087
195,5,11,68,95,146.344
199,4,6,48,83,39.5481
109,4,7,64,105,42.4737
112,3,13,48,102,288.823
192,5,5,53,102,14.4691
131,2,5,38,89,17.8096
147,2,14,34,83,480.091
200,4,5,64,100,9.765625
163,3,11,58,80,206.231
185,3,15,43,96,359.651
116,1,8,43,104,22.8131
134,3,10,45,101,120.72
200,2,8,61,107,17.1289
131,1,11,50,102,47.87141
114,5,14,57,89,748.763
185,4,10,59,96,103.553
164,2,6,57,107,9.430913
151,1,15,56,93,124.0509
176,4,8,57,105,44.0874
189,2,8,47,97,31.57658
162,2,11,42,104,86.9528
184,4,10,30,99,186.705
144,3,11,55,109,97.32729
154,4,10,61,109,82.1996
157,1,11,51,87,63.1089
184,3,7,33,102,39.923
161,4,10,33,90,258.186
148,5,11,46,105,211.106
194,5,6,34,95,47.7433
104,4,11,41,86,490.7559
105,5,14,41,80,1556.15
111,1,11,38,105,68.1465
101,1,6,68,100,7.862551
126,3,6,44,89,41.4497
128,1,10,63,89,43.97638
136,1,7,39,100,16.167
175,2,6,63,99,10.0958
130,1,10,63,96,34.50185
168,4,10,68,109,67.5931
184,2,5,68,93,6.21018
194,2,10,41,97,68.8762
167,5,6,43,105,32.4796
189,3,12,50,82,248.732
121,4,6,53,91,44.69597
167,1,7,34,100,15.1021
140,1,11,68,110,26.2605
174,2,14,61,88,189.682
127,3,15,36,109,427.513
157,4,14,50,86,549.565
162,1,12,40,81,125.4451
197,3,7,40,110,24.5274
190,4,5,50,95,15.34672
165,3,10,62,81,137.953
194,2,6,52,108,8.4986
120,1,13,37,91,164.158
200,3,8,34,106,47.4138
198,3,11,50,104,89.6405
185,5,9,70,104,62.55583
121,4,6,53,86,52.9538
142,3,14,41,108,280.6092
169,2,13,41,89,224.884
200,3,6,63,80,25.1116
107,4,12,55,99,302.616
149,5,15,59,99,494.584
100,4,8,67,80,149.254
136,3,11,32,103,209.9127
175,2,15,63,102,144.233
146,1,10,44,84,65.6594
119,3,14,55,96,355.404
121,3,7,30,100,70.86777
200,5,13,56,93,304.841
177,4,8,67,93,53.6751
108,4,6,43,85,75.73641
103,1,6,56,85,15.24445
174,2,8,56,92,33.7395
153,2,15,64,91,228.691
190,2,15,70,104,112.796
155,3,10,39,96,140.233
155,3,8,46,87,81.7869
132,1,13,45,84,156.0076
170,3,11,69,84,143.583
193,5,13,57,105,215.645
174,3,7,45,110,24.684
147,2,9,57,101,42.2222
162,1,8,37,91,28.338
184,2,5,52,85,10.6366
158,5,10,36,90,301.455
118,5,14,65,97,489.986
160,4,13,53,85,421.869
140,5,14,35,85,1139.833
127,3,7,53,105,33.0147
138,2,13,61,106,109.565
114,4,11,61,106,160.704
120,3,11,51,102,153.705
106,4,13,57,85,592.097
163,3,8,45,105,45.2234
123,4,6,31,107,46.2419
175,3,12,40,99,190.8101
100,4,8,43,96,134.582
132,1,6,49,86,13.1259
137,5,6,64,105,26.6008
186,2,10,36,109,57.6601
118,4,5,34,82,56.5077
174,2,10,58,85,80.6744
116,1,7,39,87,28.7842
101,3,15,31,89,1146.78
150,2,5,41,105,8.778837
121,1,8,66,90,21.9864
196,4,10,62,107,67.17396
137,5,7,54,88,85.04363
136,3,11,33,104,197.736
104,1,11,56,99,58.88316
121,2,13,52,106,146.586
124,1,9,56,101,25.4738
190,2,12,52,104,77.7422
157,1,14,63,101,67.31622
171,4,6,66,109,14.7786
145,2,5,63,85,11.1408
182,3,8,41,93,63.9775
174,5,7,41,109,46.40786
123,2,10,60,80,132.326
122,4,6,61,88,42.5908
113,1,15,67,97,122.108
168,3,11,52,82,207.246
178,5,14,59,90,448.0171
144,5,10,55,100,157.828
109,2,10,63,104,64.7296
194,2,5,68,86,7.44859
104,4,6,57,90,49.98251
134,5,11,42,82,536.158
197,4,15,62,104,245.649
155,2,7,30,84,62.2262
180,1,15,56,106,70.28063
158,1,15,65,109,63.4401
164,3,13,55,106,153.379
183,1,7,64,102,6.89926
110,4,15,53,106,486.057
155,5,8,40,96,116.674
197,5,5,35,93,28.1732
132,5,12,37,81,832.1911
175,3,14,62,96,214.389
127,2,9,54,99,54.7765
132,4,8,37,108,83.2191
179,1,12,47,84,86.63532
183,4,12,55,105,148.307
170,2,8,51,83,51.64004
132,1,15,64,97,109.432
131,5,6,38,95,63.2613
158,4,15,35,85,993.7836
120,5,7,61,89,83.08508
115,3,8,37,98,95.8856
170,5,9,36,104,132.369
115,4,10,33,82,477.911
149,3,9,50,106,61.619
108,4,8,33,107,117.268
181,5,6,59,104,22.47673
198,1,9,67,102,12.9457
163,1,11,43,80,92.724
147,5,9,48,98,137.215
113,2,11,34,91,229.862
154,2,11,57,88,111.251
181,1,6,68,84,7.40233
185,4,5,34,84,33.52907
115,2,11,41,84,238.138
144,4,6,63,101,23.10929
196,3,12,33,85,326.2708
163,3,14,50,90,346.386
178,4,10,41,85,223.12
146,5,5,54,100,19.8186
165,3,8,68,98,36.363
118,3,14,32,107,444.9
150,1,8,44,106,16.2835
156,5,7,64,89,60.91574
167,5,7,57,103,41.21935
168,5,6,45,91,47.39339
145,2,15,48,91,321.744
152,4,6,36,102,37.1969
153,5,6,30,90,80.69071
132,5,15,45,90,974.249
176,5,11,68,86,218.56